File: CHRISTIFIRE/CHRISTIFIRE_S701_tga_N2_v1_devc.csv
s,C,C,kg/m2
Time,"null","null","null"
 0.0000000E+000, 20, 20, 0.01542
 5, 20.48, 20.1088, 0.01542
 10, 21.28, 20.6601, 0.01542
 15, 22.208, 21.4595, 0.01542
 20, 23.04, 22.3559, 0.01542
 24, 23.76, 23.0972, 0.01542
 29, 24.48, 23.8233, 0.01542
 34, 25.28, 24.6272, 0.01542
 39, 26.208, 25.47, 0.01542
 44, 27.04, 26.3733, 0.01542
 48, 27.76, 27.1142, 0.01542
 53, 28.48, 27.8399, 0.01542
 58, 29.28, 28.6436, 0.01542
 63, 30.208, 29.4872, 0.01542
 68, 31.04, 30.3908, 0.01542
 72, 31.76, 31.1305, 0.01542
 77, 32.48, 31.8556, 0.01542
 82, 33.28, 32.659, 0.01542
 87, 34.208, 33.5036, 0.01542
 92, 35.04, 34.4074, 0.01542
 96, 35.76, 35.1459, 0.01542
 101, 36.48, 35.8705, 0.01542
 106, 37.28, 36.6737, 0.01542
 111, 38.208, 37.5191, 0.01542
 116, 39.04, 38.4232, 0.01542
 120, 39.76, 39.1604, 0.01542
 125, 40.48, 39.8847, 0.01542
 130, 41.28, 40.6876, 0.01542
 135, 42.208, 41.534, 0.01542
 140, 43.04, 42.4381, 0.01542
 144, 43.76, 43.1742, 0.01542
 149, 44.48, 43.8981, 0.01542
 154, 45.28, 44.7008, 0.01542
 159, 46.208, 45.5481, 0.01542
 164, 47.04, 46.4523, 0.01542
 169, 47.84, 47.2678, 0.01542
 173, 48.56, 47.9911, 0.01542
 178, 49.28, 48.7134, 0.01542
 183, 50.208, 49.5616, 0.01542
 188, 51.04, 50.4658, 0.01542
 193, 51.84, 51.2801, 0.01542
 197, 52.56, 52.0032, 0.01542
 202, 53.28, 52.7253, 0.01542
 207, 54.208, 53.5744, 0.01542
 212, 55.04, 54.4785, 0.01542
 217, 55.84, 55.2919, 0.01542
 221, 56.56, 56.0147, 0.01542
 226, 57.28, 56.7367, 0.01542
 231, 58.208, 57.5867, 0.01542
 236, 59.04, 58.4907, 0.01542
 241, 59.84, 59.303, 0.01542
 245, 60.56, 60.0256, 0.01542
 250, 61.28, 60.7475, 0.01542
 255, 62.208, 61.5984, 0.01542
 260, 63.04, 62.5023, 0.01542
 265, 63.84, 63.3136, 0.01542
 269, 64.56, 64.036, 0.01542
 274, 65.28, 64.7579, 0.01542
 279, 66.208, 65.6097, 0.01542
 284, 67.04, 66.5132, 0.01542
 289, 67.84, 67.3237, 0.01542
 293, 68.56, 68.0459, 0.01542
 298, 69.28, 68.7677, 0.01542
 303, 70.208, 69.6204, 0.01542
 308, 71.04, 70.5237, 0.01542
 313, 71.84, 71.3334, 0.01542
 317, 72.56, 72.0554, 0.01542
 322, 73.28, 72.7771, 0.01542
 327, 74.208, 73.6307, 0.01542
 332, 75.04, 74.5337, 0.01542
 337, 75.84, 75.3425, 0.01542
 341, 76.56, 76.0644, 0.01542
 346, 77.28, 76.786, 0.01542
 351, 78.208, 77.6405, 0.01542
 356, 79.04, 78.5431, 0.01542
 361, 79.84, 79.3513, 0.01542
 365, 80.56, 80.073, 0.01542
 370, 81.28, 80.7946, 0.01542
 375, 82.208, 81.65, 0.01542
 380, 83.04, 82.5522, 0.01542
 385, 83.84, 83.3596, 0.01542
 389, 84.56, 84.0813, 0.01542
 394, 85.28, 84.8027, 0.01542
 399, 86.208, 85.659, 0.01542
 404, 87.04, 86.5608, 0.01542
 409, 87.84, 87.3676, 0.01542
 413, 88.56, 88.0892, 0.01542
 418, 89.28, 88.8105, 0.01542
 423, 90.208, 89.6677, 0.01542
 428, 91.04, 90.569, 0.01542
 433, 91.84, 91.3752, 0.01542
 437, 92.56, 92.0967, 0.01542
 442, 93.28, 92.818, 0.01542
 447, 94.208, 93.6761, 0.01542
 452, 95.04, 94.5768, 0.01542
 457, 95.84, 95.3825, 0.01542
 461, 96.56, 96.1039, 0.01542
 466, 97.28, 96.8251, 0.01542
 471, 98.208, 97.6841, 0.01542
 476, 99.04, 98.5843, 0.01542
 481, 99.84, 99.3895, 0.01542
 485, 100.56, 100.111, 0.01542
 490, 101.28, 100.832, 0.01542
 495, 102.208, 101.692, 0.01542
 500, 103.04, 102.591, 0.01542
 505, 103.84, 103.396, 0.01542
 509, 104.56, 104.117, 0.01542
 514, 105.28, 104.839, 0.01542
 519, 106.208, 105.699, 0.01542
 524, 107.04, 106.598, 0.01542
 529, 107.84, 107.403, 0.01542
 533, 108.56, 108.124, 0.01542
 538, 109.28, 108.845, 0.01542
 543, 110.208, 109.706, 0.01542
 548, 111.04, 110.605, 0.01542
 553, 111.84, 111.409, 0.01542
 557, 112.56, 112.13, 0.01542
 562, 113.28, 112.851, 0.01542
 567, 114.208, 113.713, 0.01542
 572, 115.04, 114.611, 0.01542
 577, 115.84, 115.415, 0.01542
 581, 116.56, 116.136, 0.01542
 586, 117.28, 116.857, 0.01542
 591, 118.208, 117.72, 0.01542
 596, 119.04, 118.617, 0.01542
 600, 119.76, 119.34, 0.01542
 605, 120.48, 120.061, 0.01542
 610, 121.28, 120.862, 0.01542
 615, 122.208, 121.726, 0.01542
 620, 123.04, 122.623, 0.01542
 624, 123.76, 123.345, 0.01542
 629, 124.48, 124.066, 0.01542
 634, 125.28, 124.867, 0.01542
 639, 126.208, 125.732, 0.01542
 644, 127.04, 126.628, 0.01542
 648, 127.76, 127.351, 0.01542
 653, 128.48, 128.072, 0.01542
 658, 129.28, 128.873, 0.01542
 663, 130.208, 129.738, 0.01542
 668, 131.04, 130.633, 0.01542
 672, 131.76, 131.356, 0.01542
 677, 132.48, 132.077, 0.01542
 682, 133.28, 132.878, 0.01542
 687, 134.208, 133.744, 0.01542
 692, 135.04, 134.638, 0.01542
 696, 135.76, 135.36, 0.01542
 701, 136.48, 136.081, 0.01542
 706, 137.28, 136.882, 0.01542
 711, 138.208, 137.749, 0.01542
 716, 139.04, 138.643, 0.01542
 720, 139.76, 139.365, 0.01542
 725, 140.48, 140.086, 0.01542
 730, 141.28, 140.887, 0.01542
 735, 142.208, 141.754, 0.01542
 740, 143.04, 142.648, 0.01542
 744, 143.76, 143.369, 0.01542
 749, 144.48, 144.09, 0.01542
 754, 145.28, 144.891, 0.01542
 759, 146.208, 145.759, 0.01542
 764, 147.04, 146.652, 0.01542
 768, 147.76, 147.374, 0.01542
 773, 148.48, 148.095, 0.01542
 778, 149.28, 148.895, 0.01542
 783, 150.208, 149.764, 0.01542
 788, 151.04, 150.656, 0.01542
 792, 151.76, 151.378, 0.01542
 797, 152.48, 152.099, 0.01542
 802, 153.28, 152.899, 0.01542
 807, 154.208, 153.769, 0.01542
 812, 155.04, 154.661, 0.01542
 816, 155.76, 155.382, 0.01542
 821, 156.48, 156.103, 0.01542
 826, 157.28, 156.903, 0.01542
 831, 158.208, 157.773, 0.01542
 836, 159.04, 158.664, 0.01542
 840, 159.76, 159.386, 0.01542
 845, 160.48, 160.106, 0.01542
 850, 161.28, 160.907, 0.01542
 855, 162.208, 161.778, 0.01542
 860, 163.04, 162.668, 0.01542
 864, 163.76, 163.389, 0.01542
 869, 164.48, 164.11, 0.01542
 874, 165.28, 164.911, 0.01542
 879, 166.208, 165.782, 0.01542
 884, 167.04, 166.672, 0.01542
 888, 167.76, 167.393, 0.01542
 893, 168.48, 168.113, 0.01542
 898, 169.28, 168.914, 0.01542
 903, 170.208, 169.786, 0.01542
 908, 171.04, 170.675, 0.01542
 912, 171.76, 171.396, 0.01542
 917, 172.48, 172.117, 0.01542
 922, 173.28, 172.917, 0.01542
 927, 174.208, 173.79, 0.01542
 932, 175.04, 174.679, 0.01542
 936, 175.76, 175.4, 0.01542
 941, 176.48, 176.12, 0.01542
 946, 177.28, 176.921, 0.01542
 951, 178.208, 177.794, 0.01542
 956, 179.04, 178.682, 0.01542
 960, 179.76, 179.403, 0.01542
 965, 180.48, 180.123, 0.01542
 970, 181.28, 180.924, 0.0154199
 975, 182.208, 181.798, 0.0154199
 980, 183.04, 182.685, 0.0154199
 984, 183.76, 183.406, 0.0154199
 989, 184.48, 184.126, 0.0154199
 994, 185.28, 184.927, 0.0154199
 999, 186.208, 185.801, 0.0154199
 1004, 187.04, 186.688, 0.0154199
 1008, 187.76, 187.409, 0.0154199
 1013, 188.48, 188.129, 0.0154198
 1018, 189.28, 188.93, 0.0154198
 1023, 190.208, 189.805, 0.0154198
 1028, 191.04, 190.691, 0.0154198
 1032, 191.76, 191.412, 0.0154198
 1037, 192.48, 192.132, 0.0154197
 1042, 193.28, 192.933, 0.0154197
 1047, 194.208, 193.808, 0.0154197
 1052, 195.04, 194.694, 0.0154196
 1056, 195.76, 195.414, 0.0154196
 1061, 196.48, 196.135, 0.0154195
 1066, 197.28, 196.935, 0.0154195
 1071, 198.208, 197.811, 0.0154194
 1076, 199.04, 198.696, 0.0154194
 1080, 199.76, 199.417, 0.0154193
 1085, 200.48, 200.137, 0.0154192
 1090, 201.28, 200.938, 0.0154191
 1095, 202.208, 201.814, 0.015419
 1100, 203.04, 202.699, 0.0154189
 1104, 203.76, 203.42, 0.0154188
 1109, 204.48, 204.14, 0.0154186
 1114, 205.28, 204.941, 0.0154185
 1119, 206.208, 205.817, 0.0154183
 1124, 207.04, 206.702, 0.0154181
 1128, 207.76, 207.422, 0.0154179
 1133, 208.48, 208.143, 0.0154177
 1138, 209.28, 208.943, 0.0154174
 1143, 210.208, 209.82, 0.0154171
 1148, 211.04, 210.704, 0.0154168
 1152, 211.76, 211.424, 0.0154165
 1157, 212.48, 212.145, 0.0154161
 1162, 213.28, 212.945, 0.0154157
 1167, 214.208, 213.823, 0.0154152
 1172, 215.04, 214.706, 0.0154147
 1176, 215.76, 215.427, 0.0154141
 1181, 216.48, 216.147, 0.0154136
 1186, 217.28, 216.948, 0.0154129
 1191, 218.208, 217.826, 0.0154121
 1196, 219.04, 218.709, 0.0154112
 1200, 219.76, 219.429, 0.0154103
 1205, 220.48, 220.15, 0.0154094
 1210, 221.28, 220.95, 0.0154082
 1215, 222.208, 221.829, 0.015407
 1220, 223.04, 222.711, 0.0154055
 1224, 223.76, 223.431, 0.0154041
 1229, 224.48, 224.152, 0.0154026
 1234, 225.28, 224.952, 0.0154008
 1239, 226.208, 225.831, 0.0153987
 1244, 227.04, 226.713, 0.0153964
 1248, 227.76, 227.434, 0.0153942
 1253, 228.48, 228.154, 0.0153918
 1258, 229.28, 228.954, 0.0153888
 1263, 230.208, 229.834, 0.0153856
 1268, 231.04, 230.715, 0.0153819
 1272, 231.76, 231.436, 0.0153784
 1277, 232.48, 232.156, 0.0153745
 1282, 233.28, 232.956, 0.0153698
 1287, 234.208, 233.836, 0.0153647
 1292, 235.04, 234.717, 0.015359
 1296, 235.76, 235.438, 0.0153534
 1301, 236.48, 236.158, 0.0153474
 1306, 237.28, 236.959, 0.01534
 1311, 238.208, 237.839, 0.015332
 1316, 239.04, 238.719, 0.0153231
 1320, 239.76, 239.44, 0.0153144
 1325, 240.48, 240.16, 0.015305
 1330, 241.28, 240.961, 0.0152936
 1335, 242.208, 241.841, 0.0152812
 1340, 243.04, 242.722, 0.0152675
 1344, 243.76, 243.442, 0.0152541
 1349, 244.48, 244.162, 0.0152396
 1354, 245.28, 244.963, 0.0152221
 1359, 246.208, 245.844, 0.0152031
 1364, 247.04, 246.724, 0.0151822
 1368, 247.76, 247.444, 0.0151618
 1373, 248.48, 248.165, 0.0151398
 1378, 249.28, 248.965, 0.0151135
 1383, 250.208, 249.847, 0.0150848
 1388, 251.04, 250.726, 0.0150534
 1392, 251.76, 251.447, 0.0150229
 1397, 252.48, 252.167, 0.0149901
 1402, 253.28, 252.968, 0.0149509
 1407, 254.208, 253.85, 0.0149085
 1412, 255.04, 254.729, 0.0148622
 1416, 255.76, 255.449, 0.0148174
 1421, 256.48, 256.17, 0.0147695
 1426, 257.28, 256.97, 0.0147125
 1431, 258.208, 257.853, 0.0146512
 1436, 259.04, 258.732, 0.0145846
 1440, 259.76, 259.452, 0.0145206
 1445, 260.48, 260.173, 0.0144525
 1450, 261.28, 260.974, 0.014372
 1455, 262.208, 261.857, 0.0142861
 1460, 263.04, 262.735, 0.0141935
 1464, 263.76, 263.456, 0.0141051
 1469, 264.48, 264.176, 0.0140118
 1474, 265.28, 264.977, 0.0139025
 1479, 266.208, 265.862, 0.0137868
 1484, 267.04, 266.739, 0.0136635
 1488, 267.76, 267.46, 0.013547
 1493, 268.48, 268.18, 0.0134253
 1498, 269.28, 268.981, 0.0132842
 1503, 270.208, 269.867, 0.0131368
 1508, 271.04, 270.743, 0.0129818
 1512, 271.76, 271.464, 0.0128371
 1517, 272.48, 272.185, 0.0126879
 1522, 273.28, 272.986, 0.0125175
 1527, 274.208, 273.872, 0.0123422
 1532, 275.04, 274.748, 0.0121607
 1536, 275.76, 275.469, 0.0119941
 1541, 276.48, 276.19, 0.011825
 1546, 277.28, 276.991, 0.0116351
 1551, 278.208, 277.878, 0.0114433
 1556, 279.04, 278.753, 0.0112484
 1560, 279.76, 279.474, 0.0110727
 1565, 280.48, 280.195, 0.0108976
 1570, 281.28, 280.996, 0.0107045
 1575, 282.208, 281.884, 0.0105132
 1580, 283.04, 282.758, 0.0103228
 1584, 283.76, 283.479, 0.0101541
 1589, 284.48, 284.199, 0.00998904
 1594, 285.28, 285, 0.00981015
 1599, 286.208, 285.889, 0.00963625
 1604, 287.04, 286.763, 0.00946616
 1608, 287.76, 287.483, 0.00931799
 1613, 288.48, 288.204, 0.00917523
 1618, 289.28, 289.004, 0.00902275
 1623, 290.208, 289.894, 0.00887671
 1628, 291.04, 290.766, 0.00873588
 1632, 291.76, 291.486, 0.00861467
 1637, 292.48, 292.207, 0.0084992
 1642, 293.28, 293.008, 0.00837712
 1647, 294.208, 293.897, 0.00826135
 1652, 295.04, 294.769, 0.00815071
 1656, 295.76, 295.489, 0.00805621
 1661, 296.48, 296.21, 0.00796677
 1666, 297.28, 297.01, 0.00787275
 1671, 298.208, 297.9, 0.00778405
 1676, 299.04, 298.772, 0.00769967
 1680, 299.76, 299.491, 0.00762784
 1685, 300.48, 300.212, 0.00756005
 1690, 301.28, 301.012, 0.00748893
 1695, 302.208, 301.902, 0.00742196
 1700, 303.04, 302.774, 0.00735834
 1704, 303.76, 303.493, 0.00730421
 1709, 304.48, 304.214, 0.00725313
 1714, 305.28, 305.014, 0.00719955
 1719, 306.208, 305.904, 0.00714906
 1724, 307.04, 306.775, 0.00710106
 1728, 307.76, 307.495, 0.00706019
 1733, 308.48, 308.215, 0.00702157
 1738, 309.28, 309.015, 0.006981
 1743, 310.208, 309.906, 0.00694271
 1748, 311.04, 310.776, 0.00690624
 1752, 311.76, 311.496, 0.00687514
 1757, 312.48, 312.216, 0.0068457
 1762, 313.28, 313.016, 0.0068147
 1767, 314.208, 313.907, 0.00678539
 1772, 315.04, 314.777, 0.00675741
 1776, 315.76, 315.497, 0.0067335
 1781, 316.48, 316.217, 0.00671081
 1786, 317.28, 317.017, 0.00668688
 1791, 318.208, 317.908, 0.00666419
 1796, 319.04, 318.778, 0.0066425
 1800, 319.76, 319.498, 0.00662391
 1805, 320.48, 320.218, 0.00660624
 1810, 321.28, 321.018, 0.00658756
 1815, 322.208, 321.909, 0.00656982
 1820, 323.04, 322.779, 0.00655281
 1824, 323.76, 323.498, 0.00653821
 1829, 324.48, 324.219, 0.0065243
 1834, 325.28, 325.019, 0.00650956
 1839, 326.208, 325.91, 0.00649553
 1844, 327.04, 326.78, 0.00648206
 1848, 327.76, 327.499, 0.00647047
 1853, 328.48, 328.219, 0.00645941
 1858, 329.28, 329.019, 0.00644767
 1863, 330.208, 329.91, 0.00643646
 1868, 331.04, 330.78, 0.00642568
 1872, 331.76, 331.5, 0.00641639
 1877, 332.48, 332.22, 0.0064075
 1882, 333.28, 333.02, 0.00639804
 1887, 334.208, 333.911, 0.00638899
 1892, 335.04, 334.781, 0.00638027
 1896, 335.76, 335.5, 0.00637273
 1901, 336.48, 336.22, 0.00636551
 1906, 337.28, 337.02, 0.0063578
 1911, 338.208, 337.912, 0.00635041
 1916, 339.04, 338.781, 0.00634326
 1920, 339.76, 339.501, 0.00633706
 1925, 340.48, 340.221, 0.0063311
 1930, 341.28, 341.021, 0.00632472
 1935, 342.208, 341.912, 0.00631858
 1940, 343.04, 342.782, 0.00631261
 1944, 343.76, 343.501, 0.00630742
 1949, 344.48, 344.221, 0.0063024
 1954, 345.28, 345.021, 0.006297
 1959, 346.208, 345.913, 0.00629177
 1964, 347.04, 346.782, 0.00628666
 1968, 347.76, 347.501, 0.00628218
 1973, 348.48, 348.222, 0.00627781
 1978, 349.28, 349.022, 0.00627308
 1983, 350.208, 349.913, 0.00626846
 1988, 351.04, 350.783, 0.00626389
 1992, 351.76, 351.502, 0.00625984
 1997, 352.48, 352.222, 0.00625586
 2002, 353.28, 353.022, 0.00625149
 2007, 354.208, 353.914, 0.00624715
 2012, 355.04, 354.783, 0.00624281
 2016, 355.76, 355.502, 0.0062389
 2021, 356.48, 356.222, 0.006235
 2026, 357.28, 357.022, 0.00623065
 2031, 358.208, 357.914, 0.00622626
 2036, 359.04, 358.784, 0.00622177
 2040, 359.76, 359.503, 0.00621766
 2045, 360.48, 360.223, 0.00621348
 2050, 361.28, 361.023, 0.00620874
 2055, 362.208, 361.915, 0.00620386
 2060, 363.04, 362.784, 0.00619877
 2064, 363.76, 363.503, 0.00619404
 2069, 364.48, 364.223, 0.00618913
 2074, 365.28, 365.023, 0.00618347
 2079, 366.208, 365.915, 0.00617755
 2084, 367.04, 366.784, 0.00617127
 2088, 367.76, 367.503, 0.00616535
 2093, 368.48, 368.224, 0.00615913
 2098, 369.28, 369.024, 0.00615188
 2103, 370.208, 369.916, 0.0061442
 2108, 371.04, 370.785, 0.00613598
 2112, 371.76, 371.504, 0.00612816
 2117, 372.48, 372.224, 0.00611989
 2122, 373.28, 373.024, 0.00611019
 2127, 374.208, 373.916, 0.00609988
 2132, 375.04, 374.785, 0.00608878
 2136, 375.76, 375.504, 0.00607821
 2141, 376.48, 376.224, 0.00606703
 2146, 377.28, 377.025, 0.0060539
 2151, 378.208, 377.917, 0.00603995
 2156, 379.04, 378.786, 0.00602499
 2160, 379.76, 379.505, 0.00601076
 2165, 380.48, 380.225, 0.00599578
 2170, 381.28, 381.025, 0.00597826
 2175, 382.208, 381.917, 0.00595977
 2180, 383.04, 382.786, 0.00594005
 2184, 383.76, 383.505, 0.00592145
 2189, 384.48, 384.225, 0.005902
 2194, 385.28, 385.026, 0.00587947
 2199, 386.208, 385.918, 0.0058559
 2204, 387.04, 386.787, 0.00583105
 2208, 387.76, 387.506, 0.00580783
 2213, 388.48, 388.226, 0.00578384
 2218, 389.28, 389.026, 0.00575634
 2223, 390.208, 389.919, 0.00572795
 2228, 391.04, 390.788, 0.00569841
 2232, 391.76, 391.506, 0.00567116
 2237, 392.48, 392.226, 0.00564337
 2242, 393.28, 393.027, 0.00561194
 2247, 394.208, 393.919, 0.00557994
 2252, 395.04, 394.788, 0.00554712
 2256, 395.76, 395.507, 0.00551726
 2261, 396.48, 396.227, 0.00548721
 2266, 397.28, 397.027, 0.00545367
 2271, 398.208, 397.92, 0.00542002
 2276, 399.04, 398.789, 0.00538599
 2280, 399.76, 399.507, 0.00535542
 2285, 400.48, 400.228, 0.00532504
 2290, 401.28, 401.028, 0.00529154
 2295, 402.208, 401.921, 0.00525835
 2300, 403.04, 402.789, 0.00522519
 2304, 403.76, 403.508, 0.00519573
 2309, 404.48, 404.228, 0.00516675
 2314, 405.28, 405.029, 0.00513512
 2319, 406.208, 405.921, 0.00510408
 2324, 407.04, 406.79, 0.00507337
 2328, 407.76, 407.509, 0.00504631
 2333, 408.48, 408.229, 0.00501989
 2338, 409.28, 409.029, 0.00499127
 2343, 410.208, 409.922, 0.00496338
 2348, 411.04, 410.79, 0.00493597
 2352, 411.76, 411.509, 0.00491195
 2357, 412.48, 412.229, 0.00488863
 2362, 413.28, 413.03, 0.00486348
 2367, 414.208, 413.923, 0.00483909
 2372, 415.04, 414.791, 0.00481522
 2376, 415.76, 415.51, 0.00479437
 2381, 416.48, 416.23, 0.0047742
 2386, 417.28, 417.03, 0.0047525
 2391, 418.208, 417.923, 0.00473151
 2396, 419.04, 418.791, 0.00471102
 2400, 419.76, 419.51, 0.00469316
 2405, 420.48, 420.23, 0.0046759
 2410, 421.28, 421.03, 0.00465737
 2415, 422.208, 421.923, 0.00463946
 2420, 423.04, 422.792, 0.004622
 2425, 423.84, 423.59, 0.00460515
 2429, 424.56, 424.311, 0.0045905
 2434, 425.28, 425.031, 0.00457635
 2439, 426.208, 425.924, 0.00456113
 2444, 427.04, 426.792, 0.00454629
 2449, 427.84, 427.59, 0.00453197
 2453, 428.56, 428.311, 0.00451952
 2458, 429.28, 429.031, 0.00450749
 2463, 430.208, 429.924, 0.00449455
 2468, 431.04, 430.792, 0.00448193
 2473, 431.84, 431.591, 0.00446975
 2477, 432.56, 432.311, 0.00445916
 2482, 433.28, 433.031, 0.00444892
 2487, 434.208, 433.925, 0.0044379
 2492, 435.04, 434.792, 0.00442715
 2497, 435.84, 435.591, 0.00441676
 2501, 436.56, 436.311, 0.00440773
 2506, 437.28, 437.031, 0.00439899
 2511, 438.208, 437.925, 0.00438957
 2516, 439.04, 438.793, 0.00438038
 2521, 439.84, 439.591, 0.0043715
 2525, 440.56, 440.312, 0.00436377
 2530, 441.28, 441.032, 0.00435628
 2535, 442.208, 441.925, 0.00434821
 2540, 443.04, 442.793, 0.00434034
 2545, 443.84, 443.591, 0.00433271
 2549, 444.56, 444.312, 0.00432607
 2554, 445.28, 445.032, 0.00431964
 2559, 446.208, 445.925, 0.0043127
 2564, 447.04, 446.793, 0.00430592
 2569, 447.84, 447.592, 0.00429935
 2573, 448.56, 448.312, 0.00429363
 2578, 449.28, 449.032, 0.00428808
 2583, 450.208, 449.926, 0.00428209
 2588, 451.04, 450.793, 0.00427623
 2593, 451.84, 451.592, 0.00427055
 2597, 452.56, 452.312, 0.0042656
 2602, 453.28, 453.032, 0.0042608
 2607, 454.208, 453.926, 0.00425561
 2612, 455.04, 454.793, 0.00425053
 2617, 455.84, 455.592, 0.00424561
 2621, 456.56, 456.312, 0.00424132
 2626, 457.28, 457.032, 0.00423714
 2631, 458.208, 457.926, 0.00423264
 2636, 459.04, 458.794, 0.00422822
 2641, 459.84, 459.592, 0.00422394
 2645, 460.56, 460.313, 0.0042202
 2650, 461.28, 461.033, 0.00421657
 2655, 462.208, 461.926, 0.00421264
 2660, 463.04, 462.794, 0.00420879
 2665, 463.84, 463.592, 0.00420505
 2669, 464.56, 464.313, 0.00420179
 2674, 465.28, 465.033, 0.00419861
 2679, 466.208, 465.926, 0.00419518
 2684, 467.04, 466.794, 0.00419181
 2689, 467.84, 467.592, 0.00418854
 2693, 468.56, 468.313, 0.00418568
 2698, 469.28, 469.033, 0.0041829
 2703, 470.208, 469.927, 0.00417989
 2708, 471.04, 470.794, 0.00417694
 2713, 471.84, 471.592, 0.00417407
 2717, 472.56, 472.313, 0.00417156
 2722, 473.28, 473.033, 0.00416912
 2727, 474.208, 473.927, 0.00416648
 2732, 475.04, 474.794, 0.00416389
 2737, 475.84, 475.593, 0.00416136
 2741, 476.56, 476.313, 0.00415916
 2746, 477.28, 477.033, 0.00415701
 2751, 478.208, 477.927, 0.00415468
 2756, 479.04, 478.794, 0.00415239
 2761, 479.84, 479.593, 0.00415017
 2765, 480.56, 480.313, 0.00414822
 2770, 481.28, 481.033, 0.00414633
 2775, 482.208, 481.927, 0.00414427
 2780, 483.04, 482.794, 0.00414226
 2785, 483.84, 483.593, 0.00414029
 2789, 484.56, 484.313, 0.00413857
 2794, 485.28, 485.033, 0.0041369
 2799, 486.208, 485.927, 0.00413508
 2804, 487.04, 486.795, 0.00413329
 2809, 487.84, 487.593, 0.00413156
 2813, 488.56, 488.314, 0.00413003
 2818, 489.28, 489.034, 0.00412855
 2823, 490.208, 489.927, 0.00412694
 2828, 491.04, 490.795, 0.00412536
 2833, 491.84, 491.593, 0.00412382
 2837, 492.56, 492.314, 0.00412246
 2842, 493.28, 493.034, 0.00412115
 2847, 494.208, 493.928, 0.00411972
 2852, 495.04, 494.795, 0.00411831
 2857, 495.84, 495.593, 0.00411694
 2861, 496.56, 496.314, 0.00411574
 2866, 497.28, 497.034, 0.00411457
 2871, 498.208, 497.928, 0.0041133
 2876, 499.04, 498.795, 0.00411205
 2881, 499.84, 499.593, 0.00411083
 2885, 500.56, 500.314, 0.00410976
 2890, 501.28, 501.034, 0.00410872
 2895, 502.208, 501.928, 0.00410759
 2900, 503.04, 502.795, 0.00410647
 2905, 503.84, 503.593, 0.00410539
 2909, 504.56, 504.314, 0.00410443
 2914, 505.28, 505.034, 0.0041035
 2919, 506.208, 505.928, 0.00410249
 2924, 507.04, 506.795, 0.0041015
 2929, 507.84, 507.594, 0.00410053
 2933, 508.56, 508.314, 0.00409968
 2938, 509.28, 509.034, 0.00409884
 2943, 510.208, 509.928, 0.00409794
 2948, 511.04, 510.795, 0.00409705
 2953, 511.84, 511.594, 0.00409618
 2957, 512.56, 512.314, 0.00409542
 2962, 513.28, 513.034, 0.00409467
 2967, 514.208, 513.928, 0.00409386
 2972, 515.04, 514.795, 0.00409307
 2977, 515.84, 515.594, 0.00409229
 2981, 516.56, 516.314, 0.0040916
 2986, 517.28, 517.034, 0.00409093
 2991, 518.208, 517.928, 0.00409021
 2996, 519.04, 518.795, 0.00408949
 3001, 519.84, 519.594, 0.00408879
 3005, 520.56, 520.314, 0.00408817
 3010, 521.28, 521.034, 0.00408757
 3015, 522.208, 521.928, 0.00408692
 3020, 523.04, 522.795, 0.00408627
 3025, 523.84, 523.594, 0.00408564
 3029, 524.56, 524.314, 0.00408509
 3034, 525.28, 525.034, 0.00408455
 3039, 526.208, 525.929, 0.00408396
 3044, 527.04, 526.795, 0.00408337
 3049, 527.84, 527.594, 0.00408281
 3053, 528.56, 528.315, 0.0040823
 3058, 529.28, 529.035, 0.00408181
 3063, 530.208, 529.929, 0.00408128
 3068, 531.04, 530.796, 0.00408075
 3073, 531.84, 531.594, 0.00408024
 3077, 532.56, 532.315, 0.00407978
 3082, 533.28, 533.035, 0.00407934
 3087, 534.208, 533.929, 0.00407885
 3092, 535.04, 534.796, 0.00407837
 3097, 535.84, 535.594, 0.0040779
 3101, 536.56, 536.315, 0.00407749
 3106, 537.28, 537.035, 0.00407708
 3111, 538.208, 537.929, 0.00407664
 3116, 539.04, 538.796, 0.0040762
 3121, 539.84, 539.594, 0.00407577
 3125, 540.56, 540.315, 0.0040754
 3130, 541.28, 541.035, 0.00407502
 3135, 542.208, 541.929, 0.00407462
 3140, 543.04, 542.796, 0.00407422
 3145, 543.84, 543.594, 0.00407382
 3149, 544.56, 544.315, 0.00407347
 3154, 545.28, 545.035, 0.00407313
 3159, 546.208, 545.929, 0.00407276
 3164, 547.04, 546.796, 0.00407238
 3169, 547.84, 547.594, 0.00407202
 3173, 548.56, 548.315, 0.0040717
 3178, 549.28, 549.035, 0.00407138
 3183, 550.208, 549.929, 0.00407103
 3188, 551.04, 550.796, 0.00407068
 3193, 551.84, 551.594, 0.00407034
 3197, 552.56, 552.315, 0.00407004
 3202, 553.28, 553.035, 0.00406974
 3207, 554.208, 553.929, 0.00406941
 3212, 555.04, 554.796, 0.00406909
 3217, 555.84, 555.595, 0.00406876
 3221, 556.56, 556.315, 0.00406848
 3226, 557.28, 557.035, 0.00406819
 3231, 558.208, 557.929, 0.00406788
 3236, 559.04, 558.796, 0.00406757
 3241, 559.84, 559.595, 0.00406726
 3245, 560.56, 560.315, 0.00406699
 3250, 561.28, 561.035, 0.00406671
 3255, 562.208, 561.929, 0.00406641
 3260, 563.04, 562.796, 0.00406611
 3265, 563.84, 563.595, 0.00406581
 3269, 564.56, 564.315, 0.00406554
 3274, 565.28, 565.035, 0.00406528
 3279, 566.208, 565.93, 0.00406498
 3284, 567.04, 566.796, 0.00406468
 3289, 567.84, 567.595, 0.00406439
 3293, 568.56, 568.315, 0.00406412
 3298, 569.28, 569.035, 0.00406386
 3303, 570.208, 569.93, 0.00406356
 3308, 571.04, 570.796, 0.00406326
 3313, 571.84, 571.595, 0.00406297
 3317, 572.56, 572.315, 0.0040627
 3322, 573.28, 573.035, 0.00406243
 3327, 574.208, 573.93, 0.00406213
 3332, 575.04, 574.796, 0.00406182
 3337, 575.84, 575.595, 0.00406152
 3341, 576.56, 576.315, 0.00406124
 3346, 577.28, 577.036, 0.00406096
 3351, 578.208, 577.93, 0.00406065
 3356, 579.04, 578.796, 0.00406033
 3361, 579.84, 579.595, 0.00406001
 3365, 580.56, 580.316, 0.00405972
 3370, 581.28, 581.036, 0.00405942
 3375, 582.208, 581.93, 0.00405909
 3380, 583.04, 582.796, 0.00405875
 3385, 583.84, 583.595, 0.00405841
 3389, 584.56, 584.316, 0.0040581
 3394, 585.28, 585.036, 0.00405778
 3399, 586.208, 585.93, 0.00405742
 3404, 587.04, 586.797, 0.00405705
 3409, 587.84, 587.595, 0.00405668
 3413, 588.56, 588.316, 0.00405634
 3418, 589.28, 589.036, 0.00405599
 3423, 590.208, 589.93, 0.00405559
 3428, 591.04, 590.797, 0.00405519
 3433, 591.84, 591.595, 0.00405478
 3437, 592.56, 592.316, 0.0040544
 3442, 593.28, 593.036, 0.00405401
 3447, 594.208, 593.93, 0.00405357
 3452, 595.04, 594.797, 0.00405312
 3457, 595.84, 595.595, 0.00405265
 3461, 596.56, 596.316, 0.00405223
 3466, 597.28, 597.036, 0.00405179
 3471, 598.208, 597.93, 0.00405129
 3476, 599.04, 598.797, 0.00405078
 3481, 599.84, 599.595, 0.00405026
 3485, 600.56, 600.316, 0.00404977
 3490, 601.28, 601.036, 0.00404928
 3495, 602.208, 601.93, 0.00404871
 3500, 603.04, 602.797, 0.00404813
 3505, 603.84, 603.595, 0.00404753
 3509, 604.56, 604.316, 0.00404697
 3514, 605.28, 605.036, 0.0040464
 3519, 606.208, 605.93, 0.00404576
 3524, 607.04, 606.797, 0.00404508
 3529, 607.84, 607.595, 0.00404439
 3533, 608.56, 608.316, 0.00404376
 3538, 609.28, 609.036, 0.0040431
 3543, 610.208, 609.93, 0.00404235
 3548, 611.04, 610.797, 0.00404158
 3553, 611.84, 611.595, 0.00404078
 3557, 612.56, 612.316, 0.00404005
 3562, 613.28, 613.036, 0.00403929
 3567, 614.208, 613.931, 0.00403843
 3572, 615.04, 614.797, 0.00403754
 3577, 615.84, 615.595, 0.00403662
 3581, 616.56, 616.316, 0.00403576
 3586, 617.28, 617.036, 0.00403489
 3591, 618.208, 617.931, 0.00403389
 3596, 619.04, 618.797, 0.00403286
 3601, 619.84, 619.596, 0.0040318
 3605, 620.56, 620.316, 0.00403082
 3610, 621.28, 621.036, 0.00402981
 3615, 622.208, 621.931, 0.00402865
 3620, 623.04, 622.797, 0.00402746
 3625, 623.84, 623.596, 0.00402624
 3629, 624.56, 624.316, 0.0040251
 3634, 625.28, 625.036, 0.00402394
 3639, 626.208, 625.931, 0.00402262
 3644, 627.04, 626.797, 0.00402124
 3649, 627.84, 627.596, 0.00401983
 3653, 628.56, 628.316, 0.00401853
 3658, 629.28, 629.036, 0.0040172
 3663, 630.208, 629.931, 0.00401568
 3668, 631.04, 630.797, 0.0040141
 3673, 631.84, 631.596, 0.00401249
 3677, 632.56, 632.316, 0.004011
 3682, 633.28, 633.036, 0.00400948
 3687, 634.208, 633.931, 0.00400774
 3692, 635.04, 634.797, 0.00400595
 3697, 635.84, 635.596, 0.00400411
 3701, 636.56, 636.316, 0.00400241
 3706, 637.28, 637.036, 0.00400068
 3711, 638.208, 637.931, 0.00399871
 3716, 639.04, 638.797, 0.00399668
 3721, 639.84, 639.596, 0.0039946
 3725, 640.56, 640.316, 0.00399268
 3730, 641.28, 641.037, 0.00399073
 3735, 642.208, 641.931, 0.0039885
 3740, 643.04, 642.797, 0.00398622
 3745, 643.84, 643.596, 0.00398388
 3749, 644.56, 644.317, 0.00398173
 3754, 645.28, 645.037, 0.00397954
 3759, 646.208, 645.931, 0.00397706
 3764, 647.04, 646.797, 0.00397451
 3769, 647.84, 647.596, 0.0039719
 3773, 648.56, 648.317, 0.00396951
 3778, 649.28, 649.037, 0.00396708
 3783, 650.208, 649.931, 0.00396433
 3788, 651.04, 650.797, 0.00396151
 3793, 651.84, 651.596, 0.00395863
 3797, 652.56, 652.317, 0.003956
 3802, 653.28, 653.037, 0.00395332
 3807, 654.208, 653.931, 0.0039503
 3812, 655.04, 654.797, 0.00394721
 3817, 655.84, 655.596, 0.00394407
 3821, 656.56, 656.317, 0.00394119
 3826, 657.28, 657.037, 0.00393828
 3831, 658.208, 657.931, 0.00393499
 3836, 659.04, 658.798, 0.00393164
 3841, 659.84, 659.596, 0.00392824
 3845, 660.56, 660.317, 0.00392514
 3850, 661.28, 661.037, 0.00392199
 3855, 662.208, 661.931, 0.00391846
 3860, 663.04, 662.798, 0.00391486
 3865, 663.84, 663.596, 0.00391122
 3869, 664.56, 664.317, 0.00390791
 3874, 665.28, 665.037, 0.00390456
 3879, 666.208, 665.931, 0.0039008
 3884, 667.04, 666.798, 0.00389698
 3889, 667.84, 667.596, 0.00389312
 3893, 668.56, 668.317, 0.00388962
 3898, 669.28, 669.037, 0.00388608
 3903, 670.208, 669.932, 0.00388212
 3908, 671.04, 670.798, 0.00387811
 3913, 671.84, 671.596, 0.00387407
 3917, 672.56, 672.317, 0.00387041
 3922, 673.28, 673.037, 0.00386672
 3927, 674.208, 673.932, 0.00386259
 3932, 675.04, 674.798, 0.00385842
 3937, 675.84, 675.596, 0.00385422
 3941, 676.56, 676.317, 0.00385043
 3946, 677.28, 677.037, 0.00384661
 3951, 678.208, 677.932, 0.00384236
 3956, 679.04, 678.798, 0.00383806
 3961, 679.84, 679.596, 0.00383374
 3965, 680.56, 680.317, 0.00382985
 3970, 681.28, 681.037, 0.00382594
 3975, 682.208, 681.932, 0.00382158
 3980, 683.04, 682.798, 0.00381719
 3985, 683.84, 683.596, 0.00381279
 3989, 684.56, 684.317, 0.00380882
 3994, 685.28, 685.037, 0.00380485
 3999, 686.208, 685.932, 0.00380042
 4004, 687.04, 686.798, 0.00379597
 4009, 687.84, 687.596, 0.00379152
 4013, 688.56, 688.317, 0.00378751
 4018, 689.28, 689.037, 0.00378349
 4023, 690.208, 689.932, 0.00377903
 4028, 691.04, 690.798, 0.00377455
 4033, 691.84, 691.597, 0.00377007
 4037, 692.56, 692.317, 0.00376604
 4042, 693.28, 693.037, 0.00376201
 4047, 694.208, 693.932, 0.00375753
 4052, 695.04, 694.798, 0.00375304
 4057, 695.84, 695.597, 0.00374855
 4061, 696.56, 696.317, 0.00374452
 4066, 697.28, 697.037, 0.00374049
 4071, 698.208, 697.932, 0.00373602
 4076, 699.04, 698.798, 0.00373154
 4081, 699.84, 699.597, 0.00372706
 4085, 700.56, 700.317, 0.00372304
 4090, 701.28, 701.037, 0.00371902
 4095, 702.208, 701.932, 0.00371456
 4100, 703.04, 702.798, 0.0037101
 4105, 703.84, 703.597, 0.00370564
 4109, 704.56, 704.317, 0.00370163
 4114, 705.28, 705.038, 0.00369764
 4119, 706.208, 705.932, 0.0036932
 4124, 707.04, 706.798, 0.00368875
 4129, 707.84, 707.597, 0.00368432
 4133, 708.56, 708.317, 0.00368033
 4138, 709.28, 709.038, 0.00367635
 4143, 710.208, 709.932, 0.00367193
 4148, 711.04, 710.798, 0.0036675
 4153, 711.84, 711.597, 0.00366308
 4157, 712.56, 712.317, 0.0036591
 4162, 713.28, 713.038, 0.00365513
 4167, 714.208, 713.932, 0.00365073
 4172, 715.04, 714.798, 0.00364631
 4177, 715.84, 715.597, 0.00364189
 4181, 716.56, 716.317, 0.00363792
 4186, 717.28, 717.038, 0.00363395
 4191, 718.208, 717.932, 0.00362954
 4196, 719.04, 718.798, 0.00362511
 4201, 719.84, 719.597, 0.00362069
 4205, 720.56, 720.318, 0.0036167
 4210, 721.28, 721.038, 0.00361272
 4215, 722.208, 721.932, 0.00360829
 4220, 723.04, 722.798, 0.00360384
 4225, 723.84, 723.597, 0.00359938
 4229, 724.56, 724.318, 0.00359537
 4234, 725.28, 725.038, 0.00359135
 4239, 726.208, 725.932, 0.00358688
 4244, 727.04, 726.798, 0.00358238
 4249, 727.84, 727.597, 0.00357788
 4253, 728.56, 728.318, 0.00357381
 4258, 729.28, 729.038, 0.00356974
 4263, 730.208, 729.933, 0.0035652
 4268, 731.04, 730.798, 0.00356063
 4273, 731.84, 731.597, 0.00355605
 4277, 732.56, 732.318, 0.00355191
 4282, 733.28, 733.038, 0.00354776
 4287, 734.208, 733.933, 0.00354312
 4292, 735.04, 734.798, 0.00353846
 4297, 735.84, 735.597, 0.00353377
 4301, 736.56, 736.318, 0.00352953
 4306, 737.28, 737.038, 0.00352527
 4311, 738.208, 737.933, 0.00352052
 4316, 739.04, 738.798, 0.00351572
 4321, 739.84, 739.597, 0.0035109
 4325, 740.56, 740.318, 0.00350654
 4330, 741.28, 741.038, 0.00350215
 4335, 742.208, 741.933, 0.00349725
 4340, 743.04, 742.798, 0.0034923
 4345, 743.84, 743.597, 0.00348731
 4349, 744.56, 744.318, 0.0034828
 4354, 745.28, 745.038, 0.00347825
 4359, 746.208, 745.933, 0.00347317
 4364, 747.04, 746.798, 0.00346804
 4369, 747.84, 747.597, 0.00346286
 4373, 748.56, 748.318, 0.00345817
 4378, 749.28, 749.038, 0.00345344
 4383, 750.208, 749.933, 0.00344815
 4388, 751.04, 750.799, 0.0034428
 4393, 751.84, 751.597, 0.00343741
 4397, 752.56, 752.318, 0.00343252
 4402, 753.28, 753.038, 0.00342759
 4407, 754.208, 753.933, 0.00342206
 4412, 755.04, 754.799, 0.00341648
 4417, 755.84, 755.597, 0.00341084
 4421, 756.56, 756.318, 0.00340572
 4426, 757.28, 757.038, 0.00340056
 4431, 758.208, 757.933, 0.00339478
 4436, 759.04, 758.799, 0.00338893
 4441, 759.84, 759.597, 0.00338302
 4445, 760.56, 760.318, 0.00337767
 4450, 761.28, 761.038, 0.00337226
 4455, 762.208, 761.933, 0.0033662
 4460, 763.04, 762.799, 0.00336007
 4465, 763.84, 763.597, 0.00335388
 4469, 764.56, 764.318, 0.00334826
 4474, 765.28, 765.038, 0.00334259
 4479, 766.208, 765.933, 0.00333624
 4484, 767.04, 766.799, 0.0033298
 4489, 767.84, 767.597, 0.00332331
 4493, 768.56, 768.318, 0.00331742
 4498, 769.28, 769.038, 0.00331147
 4503, 770.208, 769.933, 0.00330482
 4508, 771.04, 770.799, 0.00329807
 4513, 771.84, 771.597, 0.00329127
 4517, 772.56, 772.318, 0.0032851
 4522, 773.28, 773.038, 0.00327887
 4527, 774.208, 773.933, 0.0032719
 4532, 775.04, 774.799, 0.00326486
 4537, 775.84, 775.598, 0.00325782
 4541, 776.56, 776.318, 0.0032515
 4546, 777.28, 777.038, 0.00324518
 4551, 778.208, 777.934, 0.00323817
 4556, 779.04, 778.798, 0.00323114
 4561, 779.84, 779.599, 0.00322411
 4565, 780.56, 780.318, 0.00321778
 4570, 781.28, 781.037, 0.00321146
 4575, 782.208, 781.934, 0.00320442
 4580, 783.04, 782.798, 0.00319737
 4585, 783.84, 783.599, 0.0031903
 4589, 784.56, 784.318, 0.00318394
 4594, 785.28, 785.037, 0.00317757
 4599, 786.208, 785.934, 0.00317049
 4604, 787.04, 786.798, 0.00316338
 4609, 787.84, 787.599, 0.00315627
 4613, 788.56, 788.318, 0.00314985
 4618, 789.28, 789.037, 0.00314344
 4623, 790.208, 789.934, 0.0031363
 4628, 791.04, 790.798, 0.00312913
 4633, 791.84, 791.599, 0.00312195
 4637, 792.56, 792.318, 0.00311548
 4642, 793.28, 793.037, 0.00310901
 4647, 794.208, 793.934, 0.0031018
 4652, 795.04, 794.798, 0.00309458
 4657, 795.84, 795.599, 0.00308734
 4661, 796.56, 796.318, 0.00308082
 4666, 797.28, 797.038, 0.0030743
 4671, 798.208, 797.934, 0.00306704
 4676, 799.04, 798.798, 0.00305976
 4681, 799.84, 799.599, 0.00305247
 4685, 800.56, 800.318, 0.00304591
 4690, 801.28, 801.038, 0.00303935
 4695, 802.208, 801.934, 0.00303206
 4700, 803.04, 802.798, 0.00302474
 4705, 803.84, 803.599, 0.00301742
 4709, 804.56, 804.318, 0.00301083
 4714, 805.28, 805.038, 0.00300425
 4719, 806.208, 805.934, 0.00299693
 4724, 807.04, 806.798, 0.0029896
 4729, 807.84, 807.599, 0.00298226
 4733, 808.56, 808.318, 0.00297567
 4738, 809.28, 809.038, 0.00296908
 4743, 810.208, 809.935, 0.00296176
 4748, 811.04, 810.798, 0.00295443
 4753, 811.84, 811.599, 0.0029471
 4757, 812.56, 812.318, 0.00294052
 4762, 813.28, 813.038, 0.00293395
 4767, 814.208, 813.935, 0.00292665
 4772, 815.04, 814.798, 0.00291935
 4777, 815.84, 815.599, 0.00291206
 4781, 816.56, 816.319, 0.00290552
 4786, 817.28, 817.038, 0.00289899
 4791, 818.208, 817.935, 0.00289174
 4796, 819.04, 818.798, 0.0028845
 4800, 819.76, 819.518, 0.00287799