File: NIST_Polymers/NIST_TGA_10K_cat_devc.csv
s,[K],[mg],[W/g]
Time,"Temperature","Mass","Heat Flow"
 0.0000000E+000, 300.15, 5, 0.0000000E+000
 6.1, 300.624, 5, 0.207775
 12.1, 301.627, 5, 0.216986
 18.1, 302.628, 5, 0.226481
 24, 303.621, 5, 0.222958
 30, 304.614, 5, 0.226673
 36, 305.614, 5, 0.22958
 42, 306.614, 5, 0.225498
 48, 307.612, 5, 0.226077
 54, 308.613, 5, 0.227093
 60, 309.611, 5, 0.227918
 66, 310.613, 5, 0.238085
 72, 311.612, 5, 0.236361
 78.1, 312.619, 5, 0.235778
 84.1, 313.625, 5, 0.237105
 90.1, 314.624, 5, 0.235269
 96.1, 315.622, 5, 0.236303
 102.1, 316.624, 5, 0.245835
 108.1, 317.623, 5, 0.244762
 114.1, 318.623, 5, 0.244829
 120.1, 319.622, 5, 0.244395
 126.1, 320.623, 5, 0.246956
 132.1, 321.622, 5, 0.244963
 138.1, 322.62, 5, 0.245971
 144.1, 323.621, 5, 0.25552
 150.1, 324.62, 5, 0.254463
 156.1, 325.621, 5, 0.254613
 162.1, 326.62, 5, 0.25412
 168.1, 327.62, 5, 0.256802
 174.1, 328.619, 5, 0.254653
 180.1, 329.618, 5, 0.255519
 186.1, 330.619, 5, 0.265208
 192.1, 331.618, 5, 0.264163
 198.1, 332.619, 5, 0.264397
 204.1, 333.617, 5, 0.263843
 210.1, 334.618, 5, 0.266643
 216.1, 335.617, 5, 0.264352
 222.1, 336.615, 5, 0.265165
 228.1, 337.617, 5, 0.274892
 234.1, 338.615, 5, 0.273862
 240.1, 339.616, 5, 0.274168
 246.1, 340.615, 5, 0.273548
 252.1, 341.615, 5, 0.27635
 258.1, 342.615, 5, 0.27405
 264.1, 343.613, 5, 0.274841
 270.1, 344.614, 5, 0.284589
 276.1, 345.613, 5, 0.28356
 282.1, 346.614, 5, 0.28395
 288.1, 347.613, 5, 0.283267
 294.1, 348.613, 5, 0.286181
 300.1, 349.612, 5, 0.283753
 306, 350.605, 5, 0.287642
 312, 351.597, 5, 0.28591
 318, 352.598, 5, 0.296433
 324, 353.597, 5, 0.294354
 330, 354.598, 5, 0.298451
 336, 355.597, 5, 0.293496
 342, 356.596, 5, 0.294036
 348, 357.597, 5, 0.294981
 354, 358.595, 5, 0.29557
 360, 359.596, 5, 0.306181
 366, 360.595, 5, 0.304045
 372, 361.595, 5, 0.308247
 378, 362.595, 5, 0.303194
 384, 363.593, 5, 0.303725
 390, 364.594, 5, 0.304711
 396, 365.593, 5, 0.305123
 402, 366.594, 5, 0.315935
 408, 367.593, 5, 0.313728
 414, 368.593, 5, 0.318047
 420, 369.593, 5, 0.312929
 426, 370.591, 5, 0.313434
 432, 371.592, 5, 0.314447
 438, 372.59, 5, 0.314804
 444, 373.591, 5, 0.325695
 450, 374.59, 5, 0.323423
 456, 375.59, 5, 0.327848
 462, 376.59, 5, 0.322664
 468, 377.589, 5, 0.323023
 474, 378.589, 5, 0.324182
 480, 379.588, 4.99999, 0.324489
 486, 380.589, 4.99999, 0.335449
 492, 381.588, 4.99999, 0.333115
 498, 382.588, 4.99999, 0.337648
 504, 383.588, 4.99999, 0.332407
 510, 384.586, 4.99999, 0.332722
 516, 385.587, 4.99999, 0.333912
 522, 386.586, 4.99998, 0.334182
 528, 387.587, 4.99998, 0.34522
 534, 388.586, 4.99998, 0.342822
 540, 389.586, 4.99998, 0.347326
 546, 390.585, 4.99997, 0.342154
 552, 391.584, 4.99997, 0.342452
 558, 392.585, 4.99997, 0.343675
 564, 393.583, 4.99996, 0.343892
 570, 394.584, 4.99996, 0.355009
 576, 395.583, 4.99995, 0.352536
 582, 396.584, 4.99994, 0.356491
 588, 397.583, 4.99993, 0.350453
 594, 398.582, 4.99993, 0.34996
 600, 399.583, 4.99992, 0.350365
 606, 400.582, 4.9999, 0.349764
 612, 401.583, 4.99989, 0.360028
 618, 402.582, 4.99988, 0.356811
 624, 403.582, 4.99986, 0.360672
 630, 404.582, 4.99984, 0.354632
 636, 405.581, 4.99982, 0.35414
 642, 406.582, 4.9998, 0.354569
 648, 407.581, 4.99977, 0.353957
 654, 408.582, 4.99974, 0.364268
 660, 409.581, 4.99971, 0.361036
 666, 410.581, 4.99967, 0.36495
 672, 411.581, 4.99962, 0.358927
 678, 412.58, 4.99958, 0.358448
 684, 413.581, 4.99952, 0.35887
 690, 414.58, 4.99946, 0.358311
 696, 415.581, 4.99939, 0.368684
 702, 416.58, 4.99932, 0.365455
 708, 417.58, 4.99923, 0.369442
 714, 418.58, 4.99914, 0.363461
 720, 419.579, 4.99903, 0.36302
 726, 420.58, 4.99891, 0.363515
 732, 421.579, 4.99878, 0.362992
 738, 422.58, 4.99863, 0.373456
 744, 423.579, 4.99847, 0.370267
 750, 424.579, 4.99828, 0.374364
 756, 425.579, 4.99808, 0.368417
 762, 426.578, 4.99785, 0.36811
 768, 427.579, 4.99759, 0.368732
 774, 428.577, 4.99731, 0.3683
 780, 429.578, 4.997, 0.378909
 786, 430.578, 4.99665, 0.375822
 792, 431.578, 4.99627, 0.380094
 798, 432.578, 4.99584, 0.374304
 804, 433.576, 4.99537, 0.374173
 810, 434.577, 4.99485, 0.375
 816, 435.576, 4.99428, 0.374746
 822, 436.577, 4.99365, 0.385594
 828, 437.576, 4.99295, 0.382655
 834, 438.576, 4.99218, 0.387249
 840, 439.576, 4.99134, 0.381724
 846, 440.575, 4.99042, 0.381857
 852, 441.575, 4.98941, 0.382992
 858, 442.574, 4.98831, 0.383016
 864, 443.575, 4.9871, 0.394194
 870, 444.574, 4.98579, 0.391545
 876, 445.574, 4.98436, 0.396486
 882, 446.574, 4.98281, 0.391288
 888, 447.572, 4.98113, 0.391731
 894, 448.573, 4.97932, 0.393192
 900, 449.571, 4.97736, 0.393437
 906, 450.572, 4.97527, 0.404946
 912, 451.571, 4.97302, 0.402506
 918, 452.571, 4.97063, 0.407647
 924, 453.571, 4.96808, 0.402576
 930, 454.569, 4.96539, 0.40305
 936, 455.57, 4.96254, 0.404497
 942, 456.569, 4.95956, 0.40459
 948, 457.57, 4.95644, 0.415848
 954, 458.569, 4.95321, 0.412997
 960, 459.569, 4.94986, 0.417614
 966, 460.569, 4.94644, 0.411844
 972, 461.567, 4.94295, 0.411384
 978, 462.568, 4.93942, 0.411832
 984, 463.567, 4.93588, 0.410679
 990, 464.568, 4.93237, 0.420554
 996, 465.568, 4.92891, 0.416126
 1002, 466.568, 4.92555, 0.41907
 1008, 467.569, 4.92231, 0.411522
 1014, 468.568, 4.91924, 0.409221
 1020, 469.569, 4.91635, 0.407851
 1026, 470.569, 4.91369, 0.40492
 1032, 471.57, 4.91128, 0.413159
 1038, 472.57, 4.90912, 0.40727
 1044, 473.571, 4.90723, 0.409005
 1050, 474.571, 4.90561, 0.400658
 1056, 475.571, 4.90425, 0.397873
 1062, 476.572, 4.90313, 0.396431
 1068, 477.571, 4.90224, 0.393776
 1074, 478.573, 4.90155, 0.402713
 1080, 479.572, 4.90103, 0.39781
 1086, 480.573, 4.90065, 0.400845
 1092, 481.573, 4.90039, 0.393973
 1098, 482.572, 4.9002, 0.392748
 1104, 483.573, 4.90008, 0.392907
 1110, 484.572, 4.90001, 0.391744
 1116, 485.573, 4.89996, 0.402031
 1122, 486.572, 4.89992, 0.398348
 1128, 487.572, 4.8999, 0.402414
 1134, 488.572, 4.89989, 0.396353
 1140, 489.571, 4.89987, 0.395723
 1146, 490.572, 4.89986, 0.39634
 1152, 491.571, 4.89984, 0.395473
 1158, 492.572, 4.89983, 0.405983
 1164, 493.571, 4.89981, 0.4024
 1170, 494.571, 4.89979, 0.406573
 1176, 495.571, 4.89977, 0.40058
 1182, 496.57, 4.89975, 0.399977
 1188, 497.571, 4.89973, 0.400596
 1194, 498.57, 4.89971, 0.399777
 1200, 499.571, 4.89968, 0.410335
 1206.1, 500.579, 4.89965, 0.407915
 1212.1, 501.583, 4.89962, 0.404766
 1218.1, 502.584, 4.89959, 0.408186
 1224.1, 503.583, 4.89955, 0.403959
 1230.1, 504.582, 4.89951, 0.4037
 1236.1, 505.583, 4.89947, 0.412951
 1242.1, 506.582, 4.89942, 0.410852
 1248.1, 507.583, 4.89937, 0.411648
 1254.1, 508.582, 4.89932, 0.409537
 1260.1, 509.582, 4.89926, 0.412876
 1266.1, 510.582, 4.8992, 0.408737
 1272.1, 511.581, 4.89913, 0.408528
 1278.1, 512.582, 4.89906, 0.417846
 1284.1, 513.581, 4.89898, 0.415789
 1290.1, 514.582, 4.8989, 0.416694
 1296.1, 515.581, 4.8988, 0.414641
 1302.1, 516.581, 4.89871, 0.418084
 1308.1, 517.581, 4.8986, 0.414022
 1314.1, 518.579, 4.89849, 0.413892
 1320.1, 519.581, 4.89837, 0.423314
 1326.1, 520.58, 4.89823, 0.421336
 1332.1, 521.58, 4.89809, 0.422343
 1338.1, 522.58, 4.89794, 0.420435
 1344.1, 523.58, 4.89778, 0.424033
 1350.1, 524.579, 4.8976, 0.4201
 1356.1, 525.578, 4.89742, 0.420102
 1362.1, 526.579, 4.89721, 0.429683
 1368.1, 527.578, 4.897, 0.427843
 1374.1, 528.579, 4.89676, 0.429063
 1380.1, 529.578, 4.89651, 0.427325
 1386.1, 530.578, 4.89625, 0.431142
 1392.1, 531.577, 4.89596, 0.427414
 1398.1, 532.576, 4.89565, 0.427629
 1404.1, 533.577, 4.89532, 0.437402
 1410.1, 534.576, 4.89496, 0.435828
 1416.1, 535.577, 4.89459, 0.437368
 1422.1, 536.576, 4.89418, 0.4359
 1428.1, 537.576, 4.89374, 0.440041
 1434.1, 538.575, 4.89328, 0.436633
 1440.1, 539.574, 4.89278, 0.437177
 1446.1, 540.575, 4.89225, 0.447312
 1452.1, 541.574, 4.89168, 0.44611
 1458.1, 542.574, 4.89106, 0.448091
 1464.1, 543.573, 4.89041, 0.447045
 1470.1, 544.573, 4.88972, 0.451664
 1476.1, 545.572, 4.88897, 0.448684
 1482.1, 546.571, 4.88817, 0.449778
 1488.1, 547.572, 4.88732, 0.460481
 1494.1, 548.57, 4.88642, 0.459833
 1500.1, 549.571, 4.88545, 0.462465
 1506.1, 550.569, 4.88441, 0.462038
 1512.1, 551.569, 4.88331, 0.467365
 1518.1, 552.568, 4.88213, 0.465128
 1524.1, 553.567, 4.88088, 0.46698
 1530.1, 554.567, 4.87954, 0.478501
 1536.1, 555.566, 4.87811, 0.478678
 1542.1, 556.566, 4.87659, 0.482262
 1548.1, 557.564, 4.87497, 0.482737
 1554.1, 558.564, 4.87325, 0.489128
 1560.1, 559.563, 4.87141, 0.487974
 1566.1, 560.561, 4.86946, 0.490944
 1572.1, 561.561, 4.86738, 0.503651
 1578.1, 562.559, 4.86516, 0.505065
 1584.1, 563.559, 4.86281, 0.509984
 1590.1, 564.557, 4.8603, 0.511862
 1596.1, 565.557, 4.85764, 0.519733
 1602.1, 566.555, 4.85481, 0.52012
 1608.1, 567.553, 4.85181, 0.524708
 1614.1, 568.553, 4.84861, 0.53913
 1620.1, 569.55, 4.84522, 0.542284
 1626.1, 570.55, 4.84162, 0.549161
 1632.1, 571.547, 4.83779, 0.553019
 1638.1, 572.546, 4.83374, 0.562985
 1644.1, 573.544, 4.82943, 0.565581
 1650.1, 574.541, 4.82487, 0.572461
 1656.1, 575.541, 4.82003, 0.589313
 1662.1, 576.538, 4.81489, 0.59496
 1668.1, 577.536, 4.80945, 0.60451
 1674.1, 578.533, 4.80369, 0.611153
 1680.1, 579.531, 4.79759, 0.624024
 1686.1, 580.529, 4.79112, 0.629682
 1692.1, 581.525, 4.78428, 0.639696
 1698.1, 582.524, 4.77704, 0.659894
 1704.1, 583.52, 4.76938, 0.669017
 1710.1, 584.518, 4.76128, 0.682203
 1716.1, 585.514, 4.75272, 0.692635
 1722.1, 586.511, 4.74366, 0.709432
 1728.1, 587.507, 4.7341, 0.719226
 1734.1, 588.502, 4.72399, 0.733513
 1740.1, 589.5, 4.71332, 0.758143
 1746.1, 590.495, 4.70206, 0.771873
 1752.1, 591.491, 4.69018, 0.789845
 1758.1, 592.486, 4.67764, 0.805262
 1764.1, 593.482, 4.66442, 0.827165
 1770.1, 594.477, 4.65048, 0.842335
 1776.1, 595.471, 4.6358, 0.862166
 1782.1, 596.467, 4.62033, 0.89247
 1788.1, 597.461, 4.60405, 0.912099
 1794.1, 598.456, 4.58691, 0.936119
 1800.1, 599.449, 4.56888, 0.957802
 1806.1, 600.444, 4.54991, 0.986081
 1812.1, 601.437, 4.52998, 1.00786
 1818.1, 602.429, 4.50904, 1.03444
 1824.1, 603.424, 4.48704, 1.07163
 1830.1, 604.416, 4.46395, 1.09833
 1836.1, 605.409, 4.43972, 1.12941
 1842.1, 606.401, 4.41431, 1.15844
 1848.1, 607.393, 4.38767, 1.19407
 1854.1, 608.385, 4.35977, 1.22337
 1860.1, 609.375, 4.33055, 1.25756
 1866.1, 610.368, 4.29997, 1.30229
 1872.1, 611.358, 4.26798, 1.33664
 1878.1, 612.35, 4.23455, 1.3754
 1884.1, 613.339, 4.19962, 1.41214
 1890.1, 614.33, 4.16315, 1.45522
 1896.1, 615.32, 4.1251, 1.492
 1902.1, 616.308, 4.08542, 1.5335
 1908.1, 617.299, 4.04408, 1.58526
 1914.1, 618.288, 4.00104, 1.62656
 1920.1, 619.278, 3.95625, 1.67162
 1926.1, 620.266, 3.90968, 1.71462
 1932.1, 621.256, 3.8613, 1.76336
 1938.1, 622.244, 3.81108, 1.80565
 1944.1, 623.231, 3.759, 1.85205
 1950.1, 624.221, 3.70502, 1.90798
 1956.1, 625.209, 3.64914, 1.95296
 1962.1, 626.198, 3.59133, 2.0006
 1968.1, 627.186, 3.5316, 2.04577
 1974.1, 628.175, 3.46993, 2.09532
 1980.1, 629.163, 3.40634, 2.13785
 1986.1, 630.151, 3.34082, 2.18329
 1992.1, 631.142, 3.27341, 2.23705
 1998.1, 632.13, 3.20412, 2.27868
 2004.1, 633.121, 3.13299, 2.32112
 2010.1, 634.11, 3.06006, 2.36021
 2016.1, 635.101, 2.98538, 2.40155
 2022.1, 636.092, 2.90902, 2.435
 2028.1, 637.082, 2.83104, 2.46934
 2034.1, 638.076, 2.75153, 2.51001
 2040.1, 639.068, 2.67058, 2.53685
 2046.1, 640.063, 2.5883, 2.56205
 2052.1, 641.056, 2.5048, 2.58264
 2058.1, 642.053, 2.42021, 2.60245
 2064.1, 643.048, 2.33467, 2.61345
 2070.1, 644.045, 2.24834, 2.62291
 2076.1, 645.045, 2.16137, 2.63643
 2082.1, 646.044, 2.07394, 2.6341
 2088.1, 647.047, 1.98623, 2.62747
 2094.1, 648.048, 1.89845, 2.61501
 2100.1, 649.053, 1.81078, 2.59905
 2106.1, 650.058, 1.72346, 2.57417
 2112.1, 651.064, 1.63668, 2.54544
 2118.1, 652.074, 1.55069, 2.51925
 2124.1, 653.083, 1.46571, 2.47572
 2130.1, 654.096, 1.38197, 2.42664
 2136.1, 655.107, 1.29971, 2.37184
 2142.1, 656.123, 1.21915, 2.31238
 2148.1, 657.137, 1.14052, 2.24611
 2154.1, 658.153, 1.06405, 2.17546
 2160.1, 659.173, 0.989941, 2.10796
 2166.1, 660.192, 0.918396, 2.02382
 2172.1, 661.214, 0.8496, 1.93595
 2178.1, 662.235, 0.783723, 1.84552
 2184.1, 663.258, 0.720915, 1.75287
 2190.1, 664.28, 0.661304, 1.65755
 2196.1, 665.302, 0.604997, 1.5605
 2202.1, 666.328, 0.552072, 1.4699
 2208.1, 667.352, 0.502584, 1.36641
 2214.1, 668.377, 0.456559, 1.26484
 2220.1, 669.399, 0.413995, 1.1666
 2226.1, 670.423, 0.374864, 1.0706
 2232.1, 671.445, 0.339106, 0.976874
 2238.1, 672.465, 0.30664, 0.886245
 2244.1, 673.489, 0.277357, 0.806221
 2250.1, 674.508, 0.251128, 0.718096
 2256.1, 675.528, 0.227802, 0.638148
 2262.1, 676.544, 0.207213, 0.565501
 2268.1, 677.562, 0.189181, 0.497785
 2274.1, 678.576, 0.173515, 0.435661
 2280.1, 679.588, 0.160018, 0.379144
 2286.1, 680.603, 0.148491, 0.33444
 2292.1, 681.613, 0.138736, 0.283485
 2298.1, 682.624, 0.130558, 0.242301
 2304.1, 683.631, 0.123768, 0.207744
 2310.1, 684.639, 0.118187, 0.177309
 2316.1, 685.644, 0.113649, 0.151452
 2322.1, 686.648, 0.109998, 0.129634
 2328.1, 687.655, 0.107094, 0.11732
 2334.1, 688.659, 0.104812, 0.0968633
 2340.1, 689.662, 0.10304, 0.0838575
 2346.1, 690.663, 0.101682, 0.0744384
 2352.1, 691.666, 0.100654, 0.0664744
 2358.1, 692.666, 0.0998866, 0.0604196
 2364.1, 693.666, 0.099322, 0.0557913
 2370.1, 694.67, 0.0989127, 0.0581065
 2376.1, 695.67, 0.0986204, 0.0500652
 2382.1, 696.671, 0.098415, 0.0473963
 2388.1, 697.67, 0.098273, 0.0463916
 2394.1, 698.671, 0.0981765, 0.0452187
 2400.1, 699.67, 0.0981121, 0.0445548
 2406.1, 700.669, 0.0980698, 0.0441365
 2412.1, 701.672, 0.0980427, 0.0496858
 2418.1, 702.671, 0.0980256, 0.044091
 2424.1, 703.672, 0.098015, 0.0432315
 2430.1, 704.671, 0.0980086, 0.0435487
 2436.1, 705.672, 0.0980048, 0.0433264
 2442.1, 706.67, 0.0980026, 0.0433232
 2448.1, 707.669, 0.0980014, 0.0433624
 2454.1, 708.672, 0.0980007, 0.0492273
 2460.1, 709.671, 0.0980004, 0.0438361
 2466.1, 710.672, 0.0980002, 0.0431009
 2472.1, 711.671, 0.0980001, 0.0435027
 2478.1, 712.672, 0.098, 0.043332
 2484.1, 713.67, 0.098, 0.0433598
 2490.1, 714.669, 0.098, 0.0434181
 2496.1, 715.672, 0.098, 0.0493007
 2502.1, 716.671, 0.098, 0.0439148
 2508.1, 717.672, 0.098, 0.0431748
 2514.1, 718.671, 0.098, 0.0435792
 2520.1, 719.672, 0.098, 0.043409
 2526.1, 720.67, 0.098, 0.0434383
 2532.1, 721.669, 0.098, 0.0434969
 2538.1, 722.672, 0.098, 0.0493866
 2544.1, 723.671, 0.098, 0.0440002
 2550.1, 724.672, 0.098, 0.0432509
 2556.1, 725.671, 0.098, 0.0436557
 2562.1, 726.672, 0.098, 0.0434867
 2568.1, 727.67, 0.098, 0.0435174
 2574.1, 728.669, 0.098, 0.0435759
 2580.1, 729.672, 0.098, 0.0494727
 2586.1, 730.671, 0.098, 0.0440859
 2592.1, 731.672, 0.098, 0.0433285
 2598.1, 732.671, 0.098, 0.0437336
 2604.1, 733.672, 0.098, 0.0435644
 2610.1, 734.67, 0.098, 0.0435964
 2616.1, 735.669, 0.098, 0.0436551
 2622.1, 736.672, 0.098, 0.0495574
 2628.1, 737.671, 0.098, 0.0441722
 2634.1, 738.672, 0.098, 0.0434063
 2640.1, 739.671, 0.098, 0.0438114
 2646.1, 740.672, 0.098, 0.043642
 2652.1, 741.67, 0.098, 0.0436756
 2658.1, 742.669, 0.098, 0.0437346
 2664.1, 743.672, 0.098, 0.0496437
 2670.1, 744.671, 0.098, 0.0442587
 2676.1, 745.672, 0.098, 0.0434845
 2682.1, 746.671, 0.098, 0.0438889
 2688.1, 747.672, 0.098, 0.0437194
 2694.1, 748.67, 0.098, 0.0437545
 2700.1, 749.669, 0.098, 0.043815
 2706.1, 750.672, 0.098, 0.0497301
 2712.1, 751.671, 0.098, 0.0443456
 2718.1, 752.672, 0.098, 0.043563
 2724.1, 753.671, 0.098, 0.0439661
 2730.1, 754.672, 0.098, 0.0437967
 2736.1, 755.67, 0.098, 0.0438339
 2742.1, 756.669, 0.098, 0.0438954
 2748.1, 757.672, 0.098, 0.0498168
 2754.1, 758.671, 0.098, 0.0444333
 2760.1, 759.672, 0.098, 0.0436421
 2766.1, 760.671, 0.098, 0.0440439
 2772.1, 761.672, 0.098, 0.0438717
 2778.1, 762.67, 0.098, 0.0439135
 2784.1, 763.669, 0.098, 0.0439764
 2790.1, 764.672, 0.098, 0.0499039
 2796.1, 765.671, 0.098, 0.0445219
 2802.1, 766.672, 0.098, 0.043722
 2808.1, 767.671, 0.098, 0.0441204
 2814.1, 768.672, 0.098, 0.0439482
 2820.1, 769.67, 0.098, 0.0439934
 2826.1, 770.669, 0.098, 0.0440584
 2832.1, 771.672, 0.098, 0.0499917
 2838.1, 772.671, 0.098, 0.0446091
 2844.1, 773.672, 0.098, 0.0437785
 2850.1, 774.671, 0.098, 0.0441998
 2856.1, 775.671, 0.098, 0.0440188
 2862.1, 776.67, 0.098, 0.0440342
 2868.1, 777.669, 0.098, 0.0440656
 2874.1, 778.672, 0.098, 0.0499897
 2880.1, 779.671, 0.098, 0.0445946
 2886.1, 780.672, 0.098, 0.0437747
 2892.1, 781.671, 0.098, 0.0441998
 2898.1, 782.671, 0.098, 0.0440188
 2904.1, 783.67, 0.098, 0.0440342
 2910.1, 784.669, 0.098, 0.0440656
 2916.1, 785.672, 0.098, 0.0499897
 2922.1, 786.671, 0.098, 0.0445946
 2928.1, 787.672, 0.098, 0.0437747
 2934.1, 788.671, 0.098, 0.0441998
 2940.1, 789.671, 0.098, 0.0440188
 2946.1, 790.67, 0.098, 0.0440342
 2952.1, 791.669, 0.098, 0.0440656
 2958.1, 792.672, 0.098, 0.0499897
 2964.1, 793.671, 0.098, 0.0445946
 2970.1, 794.672, 0.098, 0.0437747
 2976.1, 795.671, 0.098, 0.0441998
 2982.1, 796.671, 0.098, 0.0440188
 2988.1, 797.67, 0.098, 0.0440342
 2994.1, 798.669, 0.098, 0.0440656
 3000.1, 799.672, 0.098, 0.0499897
 3006.1, 800.671, 0.098, 0.0445946
 3012.1, 801.672, 0.098, 0.0437747
 3018.1, 802.671, 0.098, 0.0441998
 3024.1, 803.671, 0.098, 0.0440188
 3030.1, 804.67, 0.098, 0.0440342
 3036.1, 805.669, 0.098, 0.0440656
 3042.1, 806.672, 0.098, 0.0499897
 3048.1, 807.671, 0.098, 0.0445946
 3054.1, 808.672, 0.098, 0.0437747
 3060.1, 809.671, 0.098, 0.0441998
 3066.1, 810.671, 0.098, 0.0440188
 3072.1, 811.67, 0.098, 0.0440342
 3078.1, 812.669, 0.098, 0.0440656
 3084.1, 813.672, 0.098, 0.0499897
 3090.1, 814.671, 0.098, 0.0445946
 3096.1, 815.672, 0.098, 0.0437747
 3102.1, 816.671, 0.098, 0.0441998
 3108.1, 817.671, 0.098, 0.0440188
 3114.1, 818.67, 0.098, 0.0440342
 3120.1, 819.669, 0.098, 0.0440656
 3126.1, 820.672, 0.098, 0.0499897
 3132.1, 821.671, 0.098, 0.0445946
 3138.1, 822.672, 0.098, 0.0437747
 3144.1, 823.671, 0.098, 0.0441998
 3150.1, 824.671, 0.098, 0.0440188
 3156.1, 825.67, 0.098, 0.0440342
 3162.1, 826.669, 0.098, 0.0440656
 3168.1, 827.672, 0.098, 0.0499897
 3174.1, 828.671, 0.098, 0.0445946
 3180.1, 829.672, 0.098, 0.0437747
 3186.1, 830.671, 0.098, 0.0441998
 3192.1, 831.671, 0.098, 0.0440188
 3198.1, 832.67, 0.098, 0.0440342
 3204.1, 833.669, 0.098, 0.0440656
 3210.1, 834.672, 0.098, 0.0499897
 3216.1, 835.671, 0.098, 0.0445946
 3222.1, 836.672, 0.098, 0.0437747
 3228.1, 837.671, 0.098, 0.0441998
 3234.1, 838.671, 0.098, 0.0440188
 3240.1, 839.67, 0.098, 0.0440342
 3246.1, 840.669, 0.098, 0.0440656
 3252.1, 841.672, 0.098, 0.0499897
 3258.1, 842.671, 0.098, 0.0445946
 3264.1, 843.672, 0.098, 0.0437747
 3270.1, 844.671, 0.098, 0.0441998
 3276.1, 845.671, 0.098, 0.0440188
 3282.1, 846.67, 0.098, 0.0440342
 3288.1, 847.669, 0.098, 0.0440656
 3294.1, 848.672, 0.098, 0.0499897
 3300.1, 849.671, 0.098, 0.0445946
 3306.1, 850.672, 0.098, 0.0437747
 3312.1, 851.671, 0.098, 0.0441998
 3318.1, 852.671, 0.098, 0.0440188
 3324.1, 853.67, 0.098, 0.0440342
 3330.1, 854.669, 0.098, 0.0440656
 3336.1, 855.672, 0.098, 0.0499897
 3342.1, 856.671, 0.098, 0.0445946
 3348.1, 857.672, 0.098, 0.0437747
 3354.1, 858.671, 0.098, 0.0441998
 3360.1, 859.671, 0.098, 0.0440188
 3366.1, 860.67, 0.098, 0.0440342
 3372.1, 861.669, 0.098, 0.0440656
 3378.1, 862.672, 0.098, 0.0499897
 3384.1, 863.671, 0.098, 0.0445946
 3390.1, 864.672, 0.098, 0.0437747
 3396.1, 865.671, 0.098, 0.0441998
 3402.1, 866.671, 0.098, 0.0440188
 3408.1, 867.67, 0.098, 0.0440342
 3414.1, 868.669, 0.098, 0.0440656
 3420.1, 869.672, 0.098, 0.0499897
 3426.1, 870.671, 0.098, 0.0445946
 3432.1, 871.672, 0.098, 0.0437747
 3438.1, 872.671, 0.098, 0.0441998
 3444.1, 873.671, 0.098, 0.0440188
 3450.1, 874.67, 0.098, 0.0440342
 3456.1, 875.669, 0.098, 0.0440656
 3462.1, 876.672, 0.098, 0.0499897
 3468.1, 877.671, 0.098, 0.0445946
 3474.1, 878.672, 0.098, 0.0437747
 3480.1, 879.671, 0.098, 0.0441998
 3486.1, 880.671, 0.098, 0.0440188
 3492.1, 881.67, 0.098, 0.0440342
 3498.1, 882.669, 0.098, 0.0440656
 3504.1, 883.672, 0.098, 0.0499897
 3510.1, 884.671, 0.098, 0.0445946
 3516.1, 885.672, 0.098, 0.0437747
 3522.1, 886.671, 0.098, 0.0441998
 3528.1, 887.671, 0.098, 0.0440188
 3534.1, 888.67, 0.098, 0.0440342
 3540.1, 889.669, 0.098, 0.0440656
 3546.1, 890.672, 0.098, 0.0499897
 3552.1, 891.671, 0.098, 0.0445946
 3558.1, 892.672, 0.098, 0.0437747
 3564.1, 893.671, 0.098, 0.0441998
 3570.1, 894.671, 0.098, 0.0440188
 3576.1, 895.67, 0.098, 0.0440342
 3582.1, 896.669, 0.098, 0.0440656
 3588.1, 897.672, 0.098, 0.0499897
 3594.1, 898.671, 0.098, 0.0445946
 3600.1, 899.672, 0.098, 0.0437747
 3606.1, 900.671, 0.098, 0.0441998
 3612.1, 901.671, 0.098, 0.0440188
 3618.1, 902.67, 0.098, 0.0440342
 3624.1, 903.669, 0.098, 0.0440656
 3630.1, 904.672, 0.098, 0.0499897
 3636.1, 905.671, 0.098, 0.0445946
 3642.1, 906.672, 0.098, 0.0437747
 3648.1, 907.671, 0.098, 0.0441998
 3654.1, 908.671, 0.098, 0.0440188
 3660.1, 909.67, 0.098, 0.0440342
 3666.1, 910.669, 0.098, 0.0440656
 3672.1, 911.672, 0.098, 0.0499897
 3678.1, 912.671, 0.098, 0.0445946
 3684.1, 913.672, 0.098, 0.0437747
 3690.1, 914.671, 0.098, 0.0441998
 3696.1, 915.671, 0.098, 0.0440188
 3702.1, 916.67, 0.098, 0.0440342
 3708.1, 917.669, 0.098, 0.0440656
 3714.1, 918.672, 0.098, 0.0499897
 3720.1, 919.671, 0.098, 0.0445946
 3726.1, 920.672, 0.098, 0.0437747
 3732.1, 921.671, 0.098, 0.0441998
 3738.1, 922.671, 0.098, 0.0440188
 3744.1, 923.67, 0.098, 0.0440342
 3750.1, 924.669, 0.098, 0.0440656
 3756.1, 925.672, 0.098, 0.0499897
 3762.1, 926.671, 0.098, 0.0445946
 3768.1, 927.672, 0.098, 0.0437747
 3774.1, 928.671, 0.098, 0.0441998
 3780.1, 929.671, 0.098, 0.0440188
 3786.1, 930.67, 0.098, 0.0440342
 3792.1, 931.669, 0.098, 0.0440656
 3798.1, 932.672, 0.098, 0.0499897
 3804.1, 933.671, 0.098, 0.0445946
 3810.1, 934.672, 0.098, 0.0437747
 3816.1, 935.671, 0.098, 0.0441998
 3822.1, 936.671, 0.098, 0.0440188
 3828.1, 937.67, 0.098, 0.0440342
 3834.1, 938.669, 0.098, 0.0440656
 3840.1, 939.672, 0.098, 0.0499897
 3846.1, 940.671, 0.098, 0.0445946
 3852.1, 941.672, 0.098, 0.0437747
 3858.1, 942.671, 0.098, 0.0441998
 3864.1, 943.671, 0.098, 0.0440188
 3870.1, 944.67, 0.098, 0.0440342
 3876.1, 945.669, 0.098, 0.0440656
 3882.1, 946.672, 0.098, 0.0499897
 3888.1, 947.671, 0.098, 0.0445946
 3894.1, 948.672, 0.098, 0.0437747
 3900.1, 949.671, 0.098, 0.0441998
 3906.1, 950.671, 0.098, 0.0440188
 3912.1, 951.67, 0.098, 0.0440342
 3918.1, 952.669, 0.098, 0.0440656
 3924.1, 953.672, 0.098, 0.0499897
 3930.1, 954.671, 0.098, 0.0445946
 3936.1, 955.672, 0.098, 0.0437747
 3942.1, 956.671, 0.098, 0.0441998
 3948.1, 957.671, 0.098, 0.0440188
 3954.1, 958.67, 0.098, 0.0440342
 3960.1, 959.669, 0.098, 0.0440656
 3966.1, 960.672, 0.098, 0.0499897
 3972.1, 961.671, 0.098, 0.0445946
 3978.1, 962.672, 0.098, 0.0437747
 3984.1, 963.671, 0.098, 0.0441998
 3990.1, 964.671, 0.098, 0.0440188
 3996.1, 965.67, 0.098, 0.0440342
 4002.1, 966.669, 0.098, 0.0440656
 4008.1, 967.672, 0.098, 0.0499897
 4014.1, 968.671, 0.098, 0.0445946
 4020.1, 969.672, 0.098, 0.0437747
 4026.1, 970.671, 0.098, 0.0441998
 4032.1, 971.671, 0.098, 0.0440188
 4038.1, 972.67, 0.098, 0.0440342
 4044.1, 973.669, 0.098, 0.0440656
 4050.1, 974.672, 0.098, 0.0499897
 4056.1, 975.671, 0.098, 0.0445946
 4062.1, 976.672, 0.098, 0.0437747
 4068.1, 977.671, 0.098, 0.0441998
 4074.1, 978.671, 0.098, 0.0440188
 4080.1, 979.67, 0.098, 0.0440342
 4086.1, 980.669, 0.098, 0.0440656
 4092.1, 981.672, 0.098, 0.0499897
 4098.1, 982.671, 0.098, 0.0445946
 4104.1, 983.672, 0.098, 0.0437747
 4110.1, 984.671, 0.098, 0.0441998
 4116.1, 985.671, 0.098, 0.0440188
 4122.1, 986.67, 0.098, 0.0440342
 4128.1, 987.669, 0.098, 0.0440656
 4134.1, 988.672, 0.098, 0.0499897
 4140.1, 989.671, 0.098, 0.0445946
 4146.1, 990.672, 0.098, 0.0437747
 4152.1, 991.671, 0.098, 0.0441998
 4158.1, 992.671, 0.098, 0.0440188
 4164.1, 993.67, 0.098, 0.0440342
 4170.1, 994.669, 0.098, 0.0440656
 4176.1, 995.672, 0.098, 0.0499897
 4182.1, 996.671, 0.098, 0.0445946
 4188.1, 997.672, 0.098, 0.0437747
 4194.1, 998.671, 0.098, 0.0441998
 4200, 999.663, 0.098, 0.0447246